#
# Results on Thu, 02 May 2024 15:59:21 GMT
# USER AGENT: Mozilla/5.0 (Windows NT 10.0; Win64; x64) AppleWebKit/537.36 (KHTML, like Gecko) Chrome/123.0.0.0 Safari/537.36 Avast/123.0.0.0
# Design number was non-random = 1
#
# Columns below this comment are as follows:
# 1. Results reception time.
# 2. MD5 hash of participant's IP address.
# 3. Controller name.
# 4. Order number of item.
# 5. Inner element number.
# 6. Label.
# 7. Latin Square Group.
# 8. PennElementType.
# 9. PennElementName.
# 10. Parameter.
# 11. Value.
# 12. EventTime.
# 13. Comments.
1714665561,3a90c3f8ef563c9f5e923833a808a936,PennController,0,0,consent,NULL,PennController,0,_Trial_,Start,1714665394822,NULL
1714665561,3a90c3f8ef563c9f5e923833a808a936,PennController,0,0,consent,NULL,PennController,0,_Trial_,End,1714665397072,NULL
1714665561,3a90c3f8ef563c9f5e923833a808a936,PennController,1,0,instructions,NULL,PennController,1,_Trial_,Start,1714665397079,NULL
1714665561,3a90c3f8ef563c9f5e923833a808a936,PennController,1,0,instructions,NULL,PennController,1,_Trial_,End,1714665400554,NULL
# 13. group.
# 14. item.
# 15. condition.
# 16. ID.
# 17. Comments.
1714665561,3a90c3f8ef563c9f5e923833a808a936,PennController,2,0,familiarization-trial,NULL,PennController,4,_Trial_,Start,1714665400565,1,1,desire,CA01,NULL
1714665561,3a90c3f8ef563c9f5e923833a808a936,PennController,2,0,familiarization-trial,NULL,Audio,audio,play,0,1714665400585,1,1,desire,CA01,NULL
1714665561,3a90c3f8ef563c9f5e923833a808a936,PennController,2,0,familiarization-trial,NULL,Audio,audio,end,2.76,1714665403392,1,1,desire,CA01,NULL
1714665561,3a90c3f8ef563c9f5e923833a808a936,PennController,2,0,familiarization-trial,NULL,Audio,audio,pause,2.76,1714665403391,1,1,desire,CA01,NULL
1714665561,3a90c3f8ef563c9f5e923833a808a936,PennController,2,0,familiarization-trial,NULL,Audio,audio,seek,NA,Never,1,1,desire,CA01,NULL
1714665561,3a90c3f8ef563c9f5e923833a808a936,PennController,2,0,familiarization-trial,NULL,Canvas,side-by-side,Print,NA,1714665400576,1,1,desire,CA01,NULL
1714665561,3a90c3f8ef563c9f5e923833a808a936,PennController,2,0,familiarization-trial,NULL,Selector,selection,Selection,desire,1714665403863,1,1,desire,CA01,desire;wish
1714665561,3a90c3f8ef563c9f5e923833a808a936,PennController,2,0,familiarization-trial,NULL,PennController,4,_Trial_,End,1714665403865,1,1,desire,CA01,NULL
1714665561,3a90c3f8ef563c9f5e923833a808a936,PennController,3,0,familiarization-trial,NULL,PennController,5,_Trial_,Start,1714665403873,1,2,wish,CA01,NULL
1714665561,3a90c3f8ef563c9f5e923833a808a936,PennController,3,0,familiarization-trial,NULL,Audio,audio,play,0,1714665403889,1,2,wish,CA01,NULL
1714665561,3a90c3f8ef563c9f5e923833a808a936,PennController,3,0,familiarization-trial,NULL,Audio,audio,end,3.216,1714665407151,1,2,wish,CA01,NULL
1714665561,3a90c3f8ef563c9f5e923833a808a936,PennController,3,0,familiarization-trial,NULL,Audio,audio,pause,3.216,1714665407151,1,2,wish,CA01,NULL
1714665561,3a90c3f8ef563c9f5e923833a808a936,PennController,3,0,familiarization-trial,NULL,Audio,audio,seek,NA,Never,1,2,wish,CA01,NULL
1714665561,3a90c3f8ef563c9f5e923833a808a936,PennController,3,0,familiarization-trial,NULL,Canvas,side-by-side,Print,NA,1714665403879,1,2,wish,CA01,NULL
1714665561,3a90c3f8ef563c9f5e923833a808a936,PennController,3,0,familiarization-trial,NULL,Selector,selection,Selection,wish,1714665407271,1,2,wish,CA01,desire;wish
1714665561,3a90c3f8ef563c9f5e923833a808a936,PennController,3,0,familiarization-trial,NULL,PennController,5,_Trial_,End,1714665407273,1,2,wish,CA01,NULL
1714665561,3a90c3f8ef563c9f5e923833a808a936,PennController,4,0,familiarization-trial,NULL,PennController,6,_Trial_,Start,1714665407286,1,3,desire,CA01,NULL
1714665561,3a90c3f8ef563c9f5e923833a808a936,PennController,4,0,familiarization-trial,NULL,Audio,audio,play,0,1714665407302,1,3,desire,CA01,NULL
1714665561,3a90c3f8ef563c9f5e923833a808a936,PennController,4,0,familiarization-trial,NULL,Audio,audio,end,2.808,1714665410151,1,3,desire,CA01,NULL
1714665561,3a90c3f8ef563c9f5e923833a808a936,PennController,4,0,familiarization-trial,NULL,Audio,audio,pause,2.808,1714665410151,1,3,desire,CA01,NULL
1714665561,3a90c3f8ef563c9f5e923833a808a936,PennController,4,0,familiarization-trial,NULL,Audio,audio,seek,NA,Never,1,3,desire,CA01,NULL
1714665561,3a90c3f8ef563c9f5e923833a808a936,PennController,4,0,familiarization-trial,NULL,Canvas,side-by-side,Print,NA,1714665407292,1,3,desire,CA01,NULL
1714665561,3a90c3f8ef563c9f5e923833a808a936,PennController,4,0,familiarization-trial,NULL,Selector,selection,Selection,desire,1714665410521,1,3,desire,CA01,desire;wish
1714665561,3a90c3f8ef563c9f5e923833a808a936,PennController,4,0,familiarization-trial,NULL,PennController,6,_Trial_,End,1714665410522,1,3,desire,CA01,NULL
# 13. Comments.
1714665561,3a90c3f8ef563c9f5e923833a808a936,PennController,5,0,instructions-2,NULL,PennController,2,_Trial_,Start,1714665410529,NULL
1714665561,3a90c3f8ef563c9f5e923833a808a936,PennController,5,0,instructions-2,NULL,PennController,2,_Trial_,End,1714665411930,NULL
# 13. group.
# 14. item.
# 15. condition.
# 16. ID.
# 17. Comments.
1714665561,3a90c3f8ef563c9f5e923833a808a936,PennController,16,0,experimental-trial,NULL,PennController,17,_Trial_,Start,1714665411936,1,11,desire,CA01,NULL
1714665561,3a90c3f8ef563c9f5e923833a808a936,PennController,16,0,experimental-trial,NULL,Audio,audio,play,0,1714665411952,1,11,desire,CA01,NULL
1714665561,3a90c3f8ef563c9f5e923833a808a936,PennController,16,0,experimental-trial,NULL,Audio,audio,end,2.544,1714665414551,1,11,desire,CA01,NULL
1714665561,3a90c3f8ef563c9f5e923833a808a936,PennController,16,0,experimental-trial,NULL,Audio,audio,pause,2.544,1714665414551,1,11,desire,CA01,NULL
1714665561,3a90c3f8ef563c9f5e923833a808a936,PennController,16,0,experimental-trial,NULL,Audio,audio,seek,NA,Never,1,11,desire,CA01,NULL
1714665561,3a90c3f8ef563c9f5e923833a808a936,PennController,16,0,experimental-trial,NULL,Canvas,side-by-side,Print,NA,1714665411944,1,11,desire,CA01,NULL
1714665561,3a90c3f8ef563c9f5e923833a808a936,PennController,16,0,experimental-trial,NULL,Selector,selection,Selection,desire,1714665414558,1,11,desire,CA01,wish;desire
1714665561,3a90c3f8ef563c9f5e923833a808a936,PennController,16,0,experimental-trial,NULL,PennController,17,_Trial_,End,1714665414559,1,11,desire,CA01,NULL
1714665561,3a90c3f8ef563c9f5e923833a808a936,PennController,10,0,experimental-trial,NULL,PennController,11,_Trial_,Start,1714665414566,1,5,desire,CA01,NULL
1714665561,3a90c3f8ef563c9f5e923833a808a936,PennController,10,0,experimental-trial,NULL,Audio,audio,play,0,1714665414581,1,5,desire,CA01,NULL
1714665561,3a90c3f8ef563c9f5e923833a808a936,PennController,10,0,experimental-trial,NULL,Audio,audio,end,2.376,1714665417011,1,5,desire,CA01,NULL
1714665561,3a90c3f8ef563c9f5e923833a808a936,PennController,10,0,experimental-trial,NULL,Audio,audio,pause,2.376,1714665417011,1,5,desire,CA01,NULL
1714665561,3a90c3f8ef563c9f5e923833a808a936,PennController,10,0,experimental-trial,NULL,Audio,audio,seek,NA,Never,1,5,desire,CA01,NULL
1714665561,3a90c3f8ef563c9f5e923833a808a936,PennController,10,0,experimental-trial,NULL,Canvas,side-by-side,Print,NA,1714665414574,1,5,desire,CA01,NULL
1714665561,3a90c3f8ef563c9f5e923833a808a936,PennController,10,0,experimental-trial,NULL,Selector,selection,Selection,desire,1714665417183,1,5,desire,CA01,wish;desire
1714665561,3a90c3f8ef563c9f5e923833a808a936,PennController,10,0,experimental-trial,NULL,PennController,11,_Trial_,End,1714665417185,1,5,desire,CA01,NULL
1714665561,3a90c3f8ef563c9f5e923833a808a936,PennController,20,0,experimental-trial,NULL,PennController,21,_Trial_,Start,1714665417194,1,15,wish,CA01,NULL
1714665561,3a90c3f8ef563c9f5e923833a808a936,PennController,20,0,experimental-trial,NULL,Audio,audio,play,0,1714665417208,1,15,wish,CA01,NULL
1714665561,3a90c3f8ef563c9f5e923833a808a936,PennController,20,0,experimental-trial,NULL,Audio,audio,end,2.64,1714665419893,1,15,wish,CA01,NULL
1714665561,3a90c3f8ef563c9f5e923833a808a936,PennController,20,0,experimental-trial,NULL,Audio,audio,pause,2.64,1714665419893,1,15,wish,CA01,NULL
1714665561,3a90c3f8ef563c9f5e923833a808a936,PennController,20,0,experimental-trial,NULL,Audio,audio,seek,NA,Never,1,15,wish,CA01,NULL
1714665561,3a90c3f8ef563c9f5e923833a808a936,PennController,20,0,experimental-trial,NULL,Canvas,side-by-side,Print,NA,1714665417201,1,15,wish,CA01,NULL
1714665561,3a90c3f8ef563c9f5e923833a808a936,PennController,20,0,experimental-trial,NULL,Selector,selection,Selection,wish,1714665420059,1,15,wish,CA01,wish;desire
1714665561,3a90c3f8ef563c9f5e923833a808a936,PennController,20,0,experimental-trial,NULL,PennController,21,_Trial_,End,1714665420060,1,15,wish,CA01,NULL
1714665561,3a90c3f8ef563c9f5e923833a808a936,PennController,33,0,experimental-trial,NULL,PennController,34,_Trial_,Start,1714665420067,1,28,desire,CA01,NULL
1714665561,3a90c3f8ef563c9f5e923833a808a936,PennController,33,0,experimental-trial,NULL,Audio,audio,play,0,1714665420078,1,28,desire,CA01,NULL
1714665561,3a90c3f8ef563c9f5e923833a808a936,PennController,33,0,experimental-trial,NULL,Audio,audio,end,2.208,1714665422331,1,28,desire,CA01,NULL
1714665561,3a90c3f8ef563c9f5e923833a808a936,PennController,33,0,experimental-trial,NULL,Audio,audio,pause,2.208,1714665422331,1,28,desire,CA01,NULL
1714665561,3a90c3f8ef563c9f5e923833a808a936,PennController,33,0,experimental-trial,NULL,Audio,audio,seek,NA,Never,1,28,desire,CA01,NULL
1714665561,3a90c3f8ef563c9f5e923833a808a936,PennController,33,0,experimental-trial,NULL,Canvas,side-by-side,Print,NA,1714665420071,1,28,desire,CA01,NULL
1714665561,3a90c3f8ef563c9f5e923833a808a936,PennController,33,0,experimental-trial,NULL,Selector,selection,Selection,desire,1714665422630,1,28,desire,CA01,desire;wish
1714665561,3a90c3f8ef563c9f5e923833a808a936,PennController,33,0,experimental-trial,NULL,PennController,34,_Trial_,End,1714665422632,1,28,desire,CA01,NULL
1714665561,3a90c3f8ef563c9f5e923833a808a936,PennController,40,0,experimental-trial,NULL,PennController,41,_Trial_,Start,1714665422639,1,35,wish,CA01,NULL
1714665561,3a90c3f8ef563c9f5e923833a808a936,PennController,40,0,experimental-trial,NULL,Audio,audio,play,0,1714665422657,1,35,wish,CA01,NULL
1714665561,3a90c3f8ef563c9f5e923833a808a936,PennController,40,0,experimental-trial,NULL,Audio,audio,end,2.712,1714665425411,1,35,wish,CA01,NULL
1714665561,3a90c3f8ef563c9f5e923833a808a936,PennController,40,0,experimental-trial,NULL,Audio,audio,pause,2.712,1714665425411,1,35,wish,CA01,NULL
1714665561,3a90c3f8ef563c9f5e923833a808a936,PennController,40,0,experimental-trial,NULL,Audio,audio,seek,NA,Never,1,35,wish,CA01,NULL
1714665561,3a90c3f8ef563c9f5e923833a808a936,PennController,40,0,experimental-trial,NULL,Canvas,side-by-side,Print,NA,1714665422647,1,35,wish,CA01,NULL
1714665561,3a90c3f8ef563c9f5e923833a808a936,PennController,40,0,experimental-trial,NULL,Selector,selection,Selection,desire,1714665425665,1,35,wish,CA01,desire;wish
1714665561,3a90c3f8ef563c9f5e923833a808a936,PennController,40,0,experimental-trial,NULL,PennController,41,_Trial_,End,1714665425667,1,35,wish,CA01,NULL
1714665561,3a90c3f8ef563c9f5e923833a808a936,PennController,50,0,experimental-trial,NULL,PennController,51,_Trial_,Start,1714665425672,1,45,wish,CA01,NULL
1714665561,3a90c3f8ef563c9f5e923833a808a936,PennController,50,0,experimental-trial,NULL,Audio,audio,play,0,1714665425686,1,45,wish,CA01,NULL
1714665561,3a90c3f8ef563c9f5e923833a808a936,PennController,50,0,experimental-trial,NULL,Audio,audio,end,3.096,1714665428851,1,45,wish,CA01,NULL
1714665561,3a90c3f8ef563c9f5e923833a808a936,PennController,50,0,experimental-trial,NULL,Audio,audio,pause,3.096,1714665428851,1,45,wish,CA01,NULL
1714665561,3a90c3f8ef563c9f5e923833a808a936,PennController,50,0,experimental-trial,NULL,Audio,audio,seek,NA,Never,1,45,wish,CA01,NULL
1714665561,3a90c3f8ef563c9f5e923833a808a936,PennController,50,0,experimental-trial,NULL,Canvas,side-by-side,Print,NA,1714665425679,1,45,wish,CA01,NULL
1714665561,3a90c3f8ef563c9f5e923833a808a936,PennController,50,0,experimental-trial,NULL,Selector,selection,Selection,wish,1714665429262,1,45,wish,CA01,desire;wish
1714665561,3a90c3f8ef563c9f5e923833a808a936,PennController,50,0,experimental-trial,NULL,PennController,51,_Trial_,End,1714665429263,1,45,wish,CA01,NULL
1714665561,3a90c3f8ef563c9f5e923833a808a936,PennController,31,0,experimental-trial,NULL,PennController,32,_Trial_,Start,1714665429269,1,26,desire,CA01,NULL
1714665561,3a90c3f8ef563c9f5e923833a808a936,PennController,31,0,experimental-trial,NULL,Audio,audio,play,0,1714665429283,1,26,desire,CA01,NULL
1714665561,3a90c3f8ef563c9f5e923833a808a936,PennController,31,0,experimental-trial,NULL,Audio,audio,end,2.712,1714665432051,1,26,desire,CA01,NULL
1714665561,3a90c3f8ef563c9f5e923833a808a936,PennController,31,0,experimental-trial,NULL,Audio,audio,pause,2.712,1714665432051,1,26,desire,CA01,NULL
1714665561,3a90c3f8ef563c9f5e923833a808a936,PennController,31,0,experimental-trial,NULL,Audio,audio,seek,NA,Never,1,26,desire,CA01,NULL
1714665561,3a90c3f8ef563c9f5e923833a808a936,PennController,31,0,experimental-trial,NULL,Canvas,side-by-side,Print,NA,1714665429276,1,26,desire,CA01,NULL
1714665561,3a90c3f8ef563c9f5e923833a808a936,PennController,31,0,experimental-trial,NULL,Selector,selection,Selection,desire,1714665432178,1,26,desire,CA01,desire;wish
1714665561,3a90c3f8ef563c9f5e923833a808a936,PennController,31,0,experimental-trial,NULL,PennController,32,_Trial_,End,1714665432179,1,26,desire,CA01,NULL
1714665561,3a90c3f8ef563c9f5e923833a808a936,PennController,42,0,experimental-trial,NULL,PennController,43,_Trial_,Start,1714665432186,1,37,desire,CA01,NULL
1714665561,3a90c3f8ef563c9f5e923833a808a936,PennController,42,0,experimental-trial,NULL,Audio,audio,play,0,1714665432200,1,37,desire,CA01,NULL
1714665561,3a90c3f8ef563c9f5e923833a808a936,PennController,42,0,experimental-trial,NULL,Audio,audio,end,2.52,1714665434771,1,37,desire,CA01,NULL
1714665561,3a90c3f8ef563c9f5e923833a808a936,PennController,42,0,experimental-trial,NULL,Audio,audio,pause,2.52,1714665434771,1,37,desire,CA01,NULL
1714665561,3a90c3f8ef563c9f5e923833a808a936,PennController,42,0,experimental-trial,NULL,Audio,audio,seek,NA,Never,1,37,desire,CA01,NULL
1714665561,3a90c3f8ef563c9f5e923833a808a936,PennController,42,0,experimental-trial,NULL,Canvas,side-by-side,Print,NA,1714665432192,1,37,desire,CA01,NULL
1714665561,3a90c3f8ef563c9f5e923833a808a936,PennController,42,0,experimental-trial,NULL,Selector,selection,Selection,desire,1714665434792,1,37,desire,CA01,desire;wish
1714665561,3a90c3f8ef563c9f5e923833a808a936,PennController,42,0,experimental-trial,NULL,PennController,43,_Trial_,End,1714665434793,1,37,desire,CA01,NULL
1714665561,3a90c3f8ef563c9f5e923833a808a936,PennController,27,0,experimental-trial,NULL,PennController,28,_Trial_,Start,1714665434800,1,22,wish,CA01,NULL
1714665561,3a90c3f8ef563c9f5e923833a808a936,PennController,27,0,experimental-trial,NULL,Audio,audio,play,0,1714665434814,1,22,wish,CA01,NULL
1714665561,3a90c3f8ef563c9f5e923833a808a936,PennController,27,0,experimental-trial,NULL,Audio,audio,end,2.856,1714665437711,1,22,wish,CA01,NULL
1714665561,3a90c3f8ef563c9f5e923833a808a936,PennController,27,0,experimental-trial,NULL,Audio,audio,pause,2.856,1714665437711,1,22,wish,CA01,NULL
1714665561,3a90c3f8ef563c9f5e923833a808a936,PennController,27,0,experimental-trial,NULL,Audio,audio,seek,NA,Never,1,22,wish,CA01,NULL
1714665561,3a90c3f8ef563c9f5e923833a808a936,PennController,27,0,experimental-trial,NULL,Canvas,side-by-side,Print,NA,1714665434807,1,22,wish,CA01,NULL
1714665561,3a90c3f8ef563c9f5e923833a808a936,PennController,27,0,experimental-trial,NULL,Selector,selection,Selection,wish,1714665438004,1,22,wish,CA01,wish;desire
1714665561,3a90c3f8ef563c9f5e923833a808a936,PennController,27,0,experimental-trial,NULL,PennController,28,_Trial_,End,1714665438005,1,22,wish,CA01,NULL
1714665561,3a90c3f8ef563c9f5e923833a808a936,PennController,34,0,experimental-trial,NULL,PennController,35,_Trial_,Start,1714665438011,1,29,desire,CA01,NULL
1714665561,3a90c3f8ef563c9f5e923833a808a936,PennController,34,0,experimental-trial,NULL,Audio,audio,play,0,1714665438025,1,29,desire,CA01,NULL
1714665561,3a90c3f8ef563c9f5e923833a808a936,PennController,34,0,experimental-trial,NULL,Audio,audio,end,2.424,1714665440512,1,29,desire,CA01,NULL
1714665561,3a90c3f8ef563c9f5e923833a808a936,PennController,34,0,experimental-trial,NULL,Audio,audio,pause,2.424,1714665440511,1,29,desire,CA01,NULL
1714665561,3a90c3f8ef563c9f5e923833a808a936,PennController,34,0,experimental-trial,NULL,Audio,audio,seek,NA,Never,1,29,desire,CA01,NULL
1714665561,3a90c3f8ef563c9f5e923833a808a936,PennController,34,0,experimental-trial,NULL,Canvas,side-by-side,Print,NA,1714665438017,1,29,desire,CA01,NULL
1714665561,3a90c3f8ef563c9f5e923833a808a936,PennController,34,0,experimental-trial,NULL,Selector,selection,Selection,desire,1714665440431,1,29,desire,CA01,wish;desire
1714665561,3a90c3f8ef563c9f5e923833a808a936,PennController,34,0,experimental-trial,NULL,PennController,35,_Trial_,End,1714665440513,1,29,desire,CA01,NULL
1714665561,3a90c3f8ef563c9f5e923833a808a936,PennController,18,0,experimental-trial,NULL,PennController,19,_Trial_,Start,1714665440520,1,13,wish,CA01,NULL
1714665561,3a90c3f8ef563c9f5e923833a808a936,PennController,18,0,experimental-trial,NULL,Audio,audio,play,0,1714665440534,1,13,wish,CA01,NULL
1714665561,3a90c3f8ef563c9f5e923833a808a936,PennController,18,0,experimental-trial,NULL,Audio,audio,end,2.712,1714665443291,1,13,wish,CA01,NULL
1714665561,3a90c3f8ef563c9f5e923833a808a936,PennController,18,0,experimental-trial,NULL,Audio,audio,pause,2.712,1714665443291,1,13,wish,CA01,NULL
1714665561,3a90c3f8ef563c9f5e923833a808a936,PennController,18,0,experimental-trial,NULL,Audio,audio,seek,NA,Never,1,13,wish,CA01,NULL
1714665561,3a90c3f8ef563c9f5e923833a808a936,PennController,18,0,experimental-trial,NULL,Canvas,side-by-side,Print,NA,1714665440527,1,13,wish,CA01,NULL
1714665561,3a90c3f8ef563c9f5e923833a808a936,PennController,18,0,experimental-trial,NULL,Selector,selection,Selection,wish,1714665443702,1,13,wish,CA01,desire;wish
1714665561,3a90c3f8ef563c9f5e923833a808a936,PennController,18,0,experimental-trial,NULL,PennController,19,_Trial_,End,1714665443704,1,13,wish,CA01,NULL
1714665561,3a90c3f8ef563c9f5e923833a808a936,PennController,14,0,experimental-trial,NULL,PennController,15,_Trial_,Start,1714665443709,1,9,desire,CA01,NULL
1714665561,3a90c3f8ef563c9f5e923833a808a936,PennController,14,0,experimental-trial,NULL,Audio,audio,play,0,1714665443723,1,9,desire,CA01,NULL
1714665561,3a90c3f8ef563c9f5e923833a808a936,PennController,14,0,experimental-trial,NULL,Audio,audio,end,2.4,1714665446171,1,9,desire,CA01,NULL
1714665561,3a90c3f8ef563c9f5e923833a808a936,PennController,14,0,experimental-trial,NULL,Audio,audio,pause,2.4,1714665446171,1,9,desire,CA01,NULL
1714665561,3a90c3f8ef563c9f5e923833a808a936,PennController,14,0,experimental-trial,NULL,Audio,audio,seek,NA,Never,1,9,desire,CA01,NULL
1714665561,3a90c3f8ef563c9f5e923833a808a936,PennController,14,0,experimental-trial,NULL,Canvas,side-by-side,Print,NA,1714665443716,1,9,desire,CA01,NULL
1714665561,3a90c3f8ef563c9f5e923833a808a936,PennController,14,0,experimental-trial,NULL,Selector,selection,Selection,desire,1714665446231,1,9,desire,CA01,desire;wish
1714665561,3a90c3f8ef563c9f5e923833a808a936,PennController,14,0,experimental-trial,NULL,PennController,15,_Trial_,End,1714665446232,1,9,desire,CA01,NULL
1714665561,3a90c3f8ef563c9f5e923833a808a936,PennController,28,0,experimental-trial,NULL,PennController,29,_Trial_,Start,1714665446239,1,23,wish,CA01,NULL
1714665561,3a90c3f8ef563c9f5e923833a808a936,PennController,28,0,experimental-trial,NULL,Audio,audio,play,0,1714665446257,1,23,wish,CA01,NULL
1714665561,3a90c3f8ef563c9f5e923833a808a936,PennController,28,0,experimental-trial,NULL,Audio,audio,end,2.904,1714665449211,1,23,wish,CA01,NULL
1714665561,3a90c3f8ef563c9f5e923833a808a936,PennController,28,0,experimental-trial,NULL,Audio,audio,pause,2.904,1714665449211,1,23,wish,CA01,NULL
1714665561,3a90c3f8ef563c9f5e923833a808a936,PennController,28,0,experimental-trial,NULL,Audio,audio,seek,NA,Never,1,23,wish,CA01,NULL
1714665561,3a90c3f8ef563c9f5e923833a808a936,PennController,28,0,experimental-trial,NULL,Canvas,side-by-side,Print,NA,1714665446248,1,23,wish,CA01,NULL
1714665561,3a90c3f8ef563c9f5e923833a808a936,PennController,28,0,experimental-trial,NULL,Selector,selection,Selection,wish,1714665449473,1,23,wish,CA01,wish;desire
1714665561,3a90c3f8ef563c9f5e923833a808a936,PennController,28,0,experimental-trial,NULL,PennController,29,_Trial_,End,1714665449475,1,23,wish,CA01,NULL
1714665561,3a90c3f8ef563c9f5e923833a808a936,PennController,51,0,experimental-trial,NULL,PennController,52,_Trial_,Start,1714665449480,1,46,wish,CA01,NULL
1714665561,3a90c3f8ef563c9f5e923833a808a936,PennController,51,0,experimental-trial,NULL,Audio,audio,play,0,1714665449497,1,46,wish,CA01,NULL
1714665561,3a90c3f8ef563c9f5e923833a808a936,PennController,51,0,experimental-trial,NULL,Audio,audio,end,3.024,1714665452551,1,46,wish,CA01,NULL
1714665561,3a90c3f8ef563c9f5e923833a808a936,PennController,51,0,experimental-trial,NULL,Audio,audio,pause,3.024,1714665452551,1,46,wish,CA01,NULL
1714665561,3a90c3f8ef563c9f5e923833a808a936,PennController,51,0,experimental-trial,NULL,Audio,audio,seek,NA,Never,1,46,wish,CA01,NULL
1714665561,3a90c3f8ef563c9f5e923833a808a936,PennController,51,0,experimental-trial,NULL,Canvas,side-by-side,Print,NA,1714665449487,1,46,wish,CA01,NULL
1714665561,3a90c3f8ef563c9f5e923833a808a936,PennController,51,0,experimental-trial,NULL,Selector,selection,Selection,wish,1714665452930,1,46,wish,CA01,desire;wish
1714665561,3a90c3f8ef563c9f5e923833a808a936,PennController,51,0,experimental-trial,NULL,PennController,52,_Trial_,End,1714665452931,1,46,wish,CA01,NULL
1714665561,3a90c3f8ef563c9f5e923833a808a936,PennController,17,0,experimental-trial,NULL,PennController,18,_Trial_,Start,1714665452937,1,12,desire,CA01,NULL
1714665561,3a90c3f8ef563c9f5e923833a808a936,PennController,17,0,experimental-trial,NULL,Audio,audio,play,0,1714665452952,1,12,desire,CA01,NULL
1714665561,3a90c3f8ef563c9f5e923833a808a936,PennController,17,0,experimental-trial,NULL,Audio,audio,end,2.28,1714665455271,1,12,desire,CA01,NULL
1714665561,3a90c3f8ef563c9f5e923833a808a936,PennController,17,0,experimental-trial,NULL,Audio,audio,pause,2.28,1714665455271,1,12,desire,CA01,NULL
1714665561,3a90c3f8ef563c9f5e923833a808a936,PennController,17,0,experimental-trial,NULL,Audio,audio,seek,NA,Never,1,12,desire,CA01,NULL
1714665561,3a90c3f8ef563c9f5e923833a808a936,PennController,17,0,experimental-trial,NULL,Canvas,side-by-side,Print,NA,1714665452944,1,12,desire,CA01,NULL
1714665561,3a90c3f8ef563c9f5e923833a808a936,PennController,17,0,experimental-trial,NULL,Selector,selection,Selection,desire,1714665455758,1,12,desire,CA01,desire;wish
1714665561,3a90c3f8ef563c9f5e923833a808a936,PennController,17,0,experimental-trial,NULL,PennController,18,_Trial_,End,1714665455760,1,12,desire,CA01,NULL
1714665561,3a90c3f8ef563c9f5e923833a808a936,PennController,44,0,experimental-trial,NULL,PennController,45,_Trial_,Start,1714665455767,1,39,desire,CA01,NULL
1714665561,3a90c3f8ef563c9f5e923833a808a936,PennController,44,0,experimental-trial,NULL,Audio,audio,play,0,1714665455785,1,39,desire,CA01,NULL
1714665561,3a90c3f8ef563c9f5e923833a808a936,PennController,44,0,experimental-trial,NULL,Audio,audio,end,2.952,1714665458791,1,39,desire,CA01,NULL
1714665561,3a90c3f8ef563c9f5e923833a808a936,PennController,44,0,experimental-trial,NULL,Audio,audio,pause,2.952,1714665458791,1,39,desire,CA01,NULL
1714665561,3a90c3f8ef563c9f5e923833a808a936,PennController,44,0,experimental-trial,NULL,Audio,audio,seek,NA,Never,1,39,desire,CA01,NULL
1714665561,3a90c3f8ef563c9f5e923833a808a936,PennController,44,0,experimental-trial,NULL,Canvas,side-by-side,Print,NA,1714665455775,1,39,desire,CA01,NULL
1714665561,3a90c3f8ef563c9f5e923833a808a936,PennController,44,0,experimental-trial,NULL,Selector,selection,Selection,desire,1714665459062,1,39,desire,CA01,desire;wish
1714665561,3a90c3f8ef563c9f5e923833a808a936,PennController,44,0,experimental-trial,NULL,PennController,45,_Trial_,End,1714665459064,1,39,desire,CA01,NULL
1714665561,3a90c3f8ef563c9f5e923833a808a936,PennController,32,0,experimental-trial,NULL,PennController,33,_Trial_,Start,1714665459070,1,27,desire,CA01,NULL
1714665561,3a90c3f8ef563c9f5e923833a808a936,PennController,32,0,experimental-trial,NULL,Audio,audio,play,0,1714665459087,1,27,desire,CA01,NULL
1714665561,3a90c3f8ef563c9f5e923833a808a936,PennController,32,0,experimental-trial,NULL,Audio,audio,end,2.304,1714665461433,1,27,desire,CA01,NULL
1714665561,3a90c3f8ef563c9f5e923833a808a936,PennController,32,0,experimental-trial,NULL,Audio,audio,pause,2.304,1714665461432,1,27,desire,CA01,NULL
1714665561,3a90c3f8ef563c9f5e923833a808a936,PennController,32,0,experimental-trial,NULL,Audio,audio,seek,NA,Never,1,27,desire,CA01,NULL
1714665561,3a90c3f8ef563c9f5e923833a808a936,PennController,32,0,experimental-trial,NULL,Canvas,side-by-side,Print,NA,1714665459077,1,27,desire,CA01,NULL
1714665561,3a90c3f8ef563c9f5e923833a808a936,PennController,32,0,experimental-trial,NULL,Selector,selection,Selection,desire,1714665462427,1,27,desire,CA01,wish;desire
1714665561,3a90c3f8ef563c9f5e923833a808a936,PennController,32,0,experimental-trial,NULL,PennController,33,_Trial_,End,1714665462428,1,27,desire,CA01,NULL
1714665561,3a90c3f8ef563c9f5e923833a808a936,PennController,24,0,experimental-trial,NULL,PennController,25,_Trial_,Start,1714665462434,1,19,wish,CA01,NULL
1714665561,3a90c3f8ef563c9f5e923833a808a936,PennController,24,0,experimental-trial,NULL,Audio,audio,play,0,1714665462449,1,19,wish,CA01,NULL
1714665561,3a90c3f8ef563c9f5e923833a808a936,PennController,24,0,experimental-trial,NULL,Audio,audio,end,2.88,1714665465371,1,19,wish,CA01,NULL
1714665561,3a90c3f8ef563c9f5e923833a808a936,PennController,24,0,experimental-trial,NULL,Audio,audio,pause,2.88,1714665465371,1,19,wish,CA01,NULL
1714665561,3a90c3f8ef563c9f5e923833a808a936,PennController,24,0,experimental-trial,NULL,Audio,audio,seek,NA,Never,1,19,wish,CA01,NULL
1714665561,3a90c3f8ef563c9f5e923833a808a936,PennController,24,0,experimental-trial,NULL,Canvas,side-by-side,Print,NA,1714665462443,1,19,wish,CA01,NULL
1714665561,3a90c3f8ef563c9f5e923833a808a936,PennController,24,0,experimental-trial,NULL,Selector,selection,Selection,wish,1714665465780,1,19,wish,CA01,desire;wish
1714665561,3a90c3f8ef563c9f5e923833a808a936,PennController,24,0,experimental-trial,NULL,PennController,25,_Trial_,End,1714665465782,1,19,wish,CA01,NULL
1714665561,3a90c3f8ef563c9f5e923833a808a936,PennController,43,0,experimental-trial,NULL,PennController,44,_Trial_,Start,1714665465787,1,38,desire,CA01,NULL
1714665561,3a90c3f8ef563c9f5e923833a808a936,PennController,43,0,experimental-trial,NULL,Audio,audio,play,0,1714665465802,1,38,desire,CA01,NULL
1714665561,3a90c3f8ef563c9f5e923833a808a936,PennController,43,0,experimental-trial,NULL,Audio,audio,end,2.64,1714665468491,1,38,desire,CA01,NULL
1714665561,3a90c3f8ef563c9f5e923833a808a936,PennController,43,0,experimental-trial,NULL,Audio,audio,pause,2.64,1714665468491,1,38,desire,CA01,NULL
1714665561,3a90c3f8ef563c9f5e923833a808a936,PennController,43,0,experimental-trial,NULL,Audio,audio,seek,NA,Never,1,38,desire,CA01,NULL
1714665561,3a90c3f8ef563c9f5e923833a808a936,PennController,43,0,experimental-trial,NULL,Canvas,side-by-side,Print,NA,1714665465793,1,38,desire,CA01,NULL
1714665561,3a90c3f8ef563c9f5e923833a808a936,PennController,43,0,experimental-trial,NULL,Selector,selection,Selection,desire,1714665468397,1,38,desire,CA01,desire;wish
1714665561,3a90c3f8ef563c9f5e923833a808a936,PennController,43,0,experimental-trial,NULL,PennController,44,_Trial_,End,1714665468492,1,38,desire,CA01,NULL
1714665561,3a90c3f8ef563c9f5e923833a808a936,PennController,36,0,experimental-trial,NULL,PennController,37,_Trial_,Start,1714665468499,1,31,wish,CA01,NULL
1714665561,3a90c3f8ef563c9f5e923833a808a936,PennController,36,0,experimental-trial,NULL,Audio,audio,play,0,1714665468519,1,31,wish,CA01,NULL
1714665561,3a90c3f8ef563c9f5e923833a808a936,PennController,36,0,experimental-trial,NULL,Audio,audio,end,2.424,1714665471011,1,31,wish,CA01,NULL
1714665561,3a90c3f8ef563c9f5e923833a808a936,PennController,36,0,experimental-trial,NULL,Audio,audio,pause,2.424,1714665471011,1,31,wish,CA01,NULL
1714665561,3a90c3f8ef563c9f5e923833a808a936,PennController,36,0,experimental-trial,NULL,Audio,audio,seek,NA,Never,1,31,wish,CA01,NULL
1714665561,3a90c3f8ef563c9f5e923833a808a936,PennController,36,0,experimental-trial,NULL,Canvas,side-by-side,Print,NA,1714665468507,1,31,wish,CA01,NULL
1714665561,3a90c3f8ef563c9f5e923833a808a936,PennController,36,0,experimental-trial,NULL,Selector,selection,Selection,wish,1714665471166,1,31,wish,CA01,wish;desire
1714665561,3a90c3f8ef563c9f5e923833a808a936,PennController,36,0,experimental-trial,NULL,PennController,37,_Trial_,End,1714665471167,1,31,wish,CA01,NULL
1714665561,3a90c3f8ef563c9f5e923833a808a936,PennController,7,0,experimental-trial,NULL,PennController,8,_Trial_,Start,1714665471173,1,2,desire,CA01,NULL
1714665561,3a90c3f8ef563c9f5e923833a808a936,PennController,7,0,experimental-trial,NULL,Audio,audio,play,0,1714665471187,1,2,desire,CA01,NULL
1714665561,3a90c3f8ef563c9f5e923833a808a936,PennController,7,0,experimental-trial,NULL,Audio,audio,end,2.112,1714665473351,1,2,desire,CA01,NULL
1714665561,3a90c3f8ef563c9f5e923833a808a936,PennController,7,0,experimental-trial,NULL,Audio,audio,pause,2.112,1714665473351,1,2,desire,CA01,NULL
1714665561,3a90c3f8ef563c9f5e923833a808a936,PennController,7,0,experimental-trial,NULL,Audio,audio,seek,NA,Never,1,2,desire,CA01,NULL
1714665561,3a90c3f8ef563c9f5e923833a808a936,PennController,7,0,experimental-trial,NULL,Canvas,side-by-side,Print,NA,1714665471181,1,2,desire,CA01,NULL
1714665561,3a90c3f8ef563c9f5e923833a808a936,PennController,7,0,experimental-trial,NULL,Selector,selection,Selection,desire,1714665473653,1,2,desire,CA01,desire;wish
1714665561,3a90c3f8ef563c9f5e923833a808a936,PennController,7,0,experimental-trial,NULL,PennController,8,_Trial_,End,1714665473654,1,2,desire,CA01,NULL
1714665561,3a90c3f8ef563c9f5e923833a808a936,PennController,30,0,experimental-trial,NULL,PennController,31,_Trial_,Start,1714665473661,1,25, desire,CA01,NULL
1714665561,3a90c3f8ef563c9f5e923833a808a936,PennController,30,0,experimental-trial,NULL,Audio,audio,play,0,1714665473676,1,25, desire,CA01,NULL
1714665561,3a90c3f8ef563c9f5e923833a808a936,PennController,30,0,experimental-trial,NULL,Audio,audio,end,2.4,1714665476112,1,25, desire,CA01,NULL
1714665561,3a90c3f8ef563c9f5e923833a808a936,PennController,30,0,experimental-trial,NULL,Audio,audio,pause,2.4,1714665476112,1,25, desire,CA01,NULL
1714665561,3a90c3f8ef563c9f5e923833a808a936,PennController,30,0,experimental-trial,NULL,Audio,audio,seek,NA,Never,1,25, desire,CA01,NULL
1714665561,3a90c3f8ef563c9f5e923833a808a936,PennController,30,0,experimental-trial,NULL,Canvas,side-by-side,Print,NA,1714665473669,1,25, desire,CA01,NULL
1714665561,3a90c3f8ef563c9f5e923833a808a936,PennController,30,0,experimental-trial,NULL,Selector,selection,Selection,desire,1714665476107,1,25, desire,CA01,wish;desire
1714665561,3a90c3f8ef563c9f5e923833a808a936,PennController,30,0,experimental-trial,NULL,PennController,31,_Trial_,End,1714665476113,1,25, desire,CA01,NULL
1714665561,3a90c3f8ef563c9f5e923833a808a936,PennController,13,0,experimental-trial,NULL,PennController,14,_Trial_,Start,1714665476119,1,8,desire,CA01,NULL
1714665561,3a90c3f8ef563c9f5e923833a808a936,PennController,13,0,experimental-trial,NULL,Audio,audio,play,0,1714665476131,1,8,desire,CA01,NULL
1714665561,3a90c3f8ef563c9f5e923833a808a936,PennController,13,0,experimental-trial,NULL,Audio,audio,end,2.16,1714665478351,1,8,desire,CA01,NULL
1714665561,3a90c3f8ef563c9f5e923833a808a936,PennController,13,0,experimental-trial,NULL,Audio,audio,pause,2.16,1714665478351,1,8,desire,CA01,NULL
1714665561,3a90c3f8ef563c9f5e923833a808a936,PennController,13,0,experimental-trial,NULL,Audio,audio,seek,NA,Never,1,8,desire,CA01,NULL
1714665561,3a90c3f8ef563c9f5e923833a808a936,PennController,13,0,experimental-trial,NULL,Canvas,side-by-side,Print,NA,1714665476127,1,8,desire,CA01,NULL
1714665561,3a90c3f8ef563c9f5e923833a808a936,PennController,13,0,experimental-trial,NULL,Selector,selection,Selection,desire,1714665478575,1,8,desire,CA01,desire;wish
1714665561,3a90c3f8ef563c9f5e923833a808a936,PennController,13,0,experimental-trial,NULL,PennController,14,_Trial_,End,1714665478577,1,8,desire,CA01,NULL
1714665561,3a90c3f8ef563c9f5e923833a808a936,PennController,23,0,experimental-trial,NULL,PennController,24,_Trial_,Start,1714665478582,1,18,wish,CA01,NULL
1714665561,3a90c3f8ef563c9f5e923833a808a936,PennController,23,0,experimental-trial,NULL,Audio,audio,play,0,1714665478597,1,18,wish,CA01,NULL
1714665561,3a90c3f8ef563c9f5e923833a808a936,PennController,23,0,experimental-trial,NULL,Audio,audio,end,2.592,1714665481251,1,18,wish,CA01,NULL
1714665561,3a90c3f8ef563c9f5e923833a808a936,PennController,23,0,experimental-trial,NULL,Audio,audio,pause,2.592,1714665481251,1,18,wish,CA01,NULL
1714665561,3a90c3f8ef563c9f5e923833a808a936,PennController,23,0,experimental-trial,NULL,Audio,audio,seek,NA,Never,1,18,wish,CA01,NULL
1714665561,3a90c3f8ef563c9f5e923833a808a936,PennController,23,0,experimental-trial,NULL,Canvas,side-by-side,Print,NA,1714665478591,1,18,wish,CA01,NULL
1714665561,3a90c3f8ef563c9f5e923833a808a936,PennController,23,0,experimental-trial,NULL,Selector,selection,Selection,wish,1714665481998,1,18,wish,CA01,desire;wish
1714665561,3a90c3f8ef563c9f5e923833a808a936,PennController,23,0,experimental-trial,NULL,PennController,24,_Trial_,End,1714665481999,1,18,wish,CA01,NULL
1714665561,3a90c3f8ef563c9f5e923833a808a936,PennController,52,0,experimental-trial,NULL,PennController,53,_Trial_,Start,1714665482006,1,47,wish,CA01,NULL
1714665561,3a90c3f8ef563c9f5e923833a808a936,PennController,52,0,experimental-trial,NULL,Audio,audio,play,0,1714665482020,1,47,wish,CA01,NULL
1714665561,3a90c3f8ef563c9f5e923833a808a936,PennController,52,0,experimental-trial,NULL,Audio,audio,end,2.664,1714665484731,1,47,wish,CA01,NULL
1714665561,3a90c3f8ef563c9f5e923833a808a936,PennController,52,0,experimental-trial,NULL,Audio,audio,pause,2.664,1714665484731,1,47,wish,CA01,NULL
1714665561,3a90c3f8ef563c9f5e923833a808a936,PennController,52,0,experimental-trial,NULL,Audio,audio,seek,NA,Never,1,47,wish,CA01,NULL
1714665561,3a90c3f8ef563c9f5e923833a808a936,PennController,52,0,experimental-trial,NULL,Canvas,side-by-side,Print,NA,1714665482012,1,47,wish,CA01,NULL
1714665561,3a90c3f8ef563c9f5e923833a808a936,PennController,52,0,experimental-trial,NULL,Selector,selection,Selection,desire,1714665485302,1,47,wish,CA01,desire;wish
1714665561,3a90c3f8ef563c9f5e923833a808a936,PennController,52,0,experimental-trial,NULL,PennController,53,_Trial_,End,1714665485304,1,47,wish,CA01,NULL
1714665561,3a90c3f8ef563c9f5e923833a808a936,PennController,15,0,experimental-trial,NULL,PennController,16,_Trial_,Start,1714665485309,1,10,desire,CA01,NULL
1714665561,3a90c3f8ef563c9f5e923833a808a936,PennController,15,0,experimental-trial,NULL,Audio,audio,play,0,1714665485327,1,10,desire,CA01,NULL
1714665561,3a90c3f8ef563c9f5e923833a808a936,PennController,15,0,experimental-trial,NULL,Audio,audio,end,2.616,1714665487993,1,10,desire,CA01,NULL
1714665561,3a90c3f8ef563c9f5e923833a808a936,PennController,15,0,experimental-trial,NULL,Audio,audio,pause,2.616,1714665487993,1,10,desire,CA01,NULL
1714665561,3a90c3f8ef563c9f5e923833a808a936,PennController,15,0,experimental-trial,NULL,Audio,audio,seek,NA,Never,1,10,desire,CA01,NULL
1714665561,3a90c3f8ef563c9f5e923833a808a936,PennController,15,0,experimental-trial,NULL,Canvas,side-by-side,Print,NA,1714665485317,1,10,desire,CA01,NULL
1714665561,3a90c3f8ef563c9f5e923833a808a936,PennController,15,0,experimental-trial,NULL,Selector,selection,Selection,desire,1714665488821,1,10,desire,CA01,wish;desire
1714665561,3a90c3f8ef563c9f5e923833a808a936,PennController,15,0,experimental-trial,NULL,PennController,16,_Trial_,End,1714665488822,1,10,desire,CA01,NULL
1714665561,3a90c3f8ef563c9f5e923833a808a936,PennController,35,0,experimental-trial,NULL,PennController,36,_Trial_,Start,1714665488827,1,30,desire,CA01,NULL
1714665561,3a90c3f8ef563c9f5e923833a808a936,PennController,35,0,experimental-trial,NULL,Audio,audio,play,0,1714665488842,1,30,desire,CA01,NULL
1714665561,3a90c3f8ef563c9f5e923833a808a936,PennController,35,0,experimental-trial,NULL,Audio,audio,end,2.688,1714665491571,1,30,desire,CA01,NULL
1714665561,3a90c3f8ef563c9f5e923833a808a936,PennController,35,0,experimental-trial,NULL,Audio,audio,pause,2.688,1714665491571,1,30,desire,CA01,NULL
1714665561,3a90c3f8ef563c9f5e923833a808a936,PennController,35,0,experimental-trial,NULL,Audio,audio,seek,NA,Never,1,30,desire,CA01,NULL
1714665561,3a90c3f8ef563c9f5e923833a808a936,PennController,35,0,experimental-trial,NULL,Canvas,side-by-side,Print,NA,1714665488835,1,30,desire,CA01,NULL
1714665561,3a90c3f8ef563c9f5e923833a808a936,PennController,35,0,experimental-trial,NULL,Selector,selection,Selection,desire,1714665491752,1,30,desire,CA01,desire;wish
1714665561,3a90c3f8ef563c9f5e923833a808a936,PennController,35,0,experimental-trial,NULL,PennController,36,_Trial_,End,1714665491753,1,30,desire,CA01,NULL
1714665561,3a90c3f8ef563c9f5e923833a808a936,PennController,19,0,experimental-trial,NULL,PennController,20,_Trial_,Start,1714665491759,1,14,wish,CA01,NULL
1714665561,3a90c3f8ef563c9f5e923833a808a936,PennController,19,0,experimental-trial,NULL,Audio,audio,play,0,1714665491775,1,14,wish,CA01,NULL
1714665561,3a90c3f8ef563c9f5e923833a808a936,PennController,19,0,experimental-trial,NULL,Audio,audio,end,3.192,1714665495011,1,14,wish,CA01,NULL
1714665561,3a90c3f8ef563c9f5e923833a808a936,PennController,19,0,experimental-trial,NULL,Audio,audio,pause,3.192,1714665495011,1,14,wish,CA01,NULL
1714665561,3a90c3f8ef563c9f5e923833a808a936,PennController,19,0,experimental-trial,NULL,Audio,audio,seek,NA,Never,1,14,wish,CA01,NULL
1714665561,3a90c3f8ef563c9f5e923833a808a936,PennController,19,0,experimental-trial,NULL,Canvas,side-by-side,Print,NA,1714665491767,1,14,wish,CA01,NULL
1714665561,3a90c3f8ef563c9f5e923833a808a936,PennController,19,0,experimental-trial,NULL,Selector,selection,Selection,wish,1714665495288,1,14,wish,CA01,wish;desire
1714665561,3a90c3f8ef563c9f5e923833a808a936,PennController,19,0,experimental-trial,NULL,PennController,20,_Trial_,End,1714665495290,1,14,wish,CA01,NULL
1714665561,3a90c3f8ef563c9f5e923833a808a936,PennController,45,0,experimental-trial,NULL,PennController,46,_Trial_,Start,1714665495294,1,40,desire,CA01,NULL
1714665561,3a90c3f8ef563c9f5e923833a808a936,PennController,45,0,experimental-trial,NULL,Audio,audio,play,0,1714665495303,1,40,desire,CA01,NULL
1714665561,3a90c3f8ef563c9f5e923833a808a936,PennController,45,0,experimental-trial,NULL,Audio,audio,end,2.832,1714665498191,1,40,desire,CA01,NULL
1714665561,3a90c3f8ef563c9f5e923833a808a936,PennController,45,0,experimental-trial,NULL,Audio,audio,pause,2.832,1714665498191,1,40,desire,CA01,NULL
1714665561,3a90c3f8ef563c9f5e923833a808a936,PennController,45,0,experimental-trial,NULL,Audio,audio,seek,NA,Never,1,40,desire,CA01,NULL
1714665561,3a90c3f8ef563c9f5e923833a808a936,PennController,45,0,experimental-trial,NULL,Canvas,side-by-side,Print,NA,1714665495298,1,40,desire,CA01,NULL
1714665561,3a90c3f8ef563c9f5e923833a808a936,PennController,45,0,experimental-trial,NULL,Selector,selection,Selection,desire,1714665498213,1,40,desire,CA01,desire;wish
1714665561,3a90c3f8ef563c9f5e923833a808a936,PennController,45,0,experimental-trial,NULL,PennController,46,_Trial_,End,1714665498215,1,40,desire,CA01,NULL
1714665561,3a90c3f8ef563c9f5e923833a808a936,PennController,22,0,experimental-trial,NULL,PennController,23,_Trial_,Start,1714665498222,1,17,wish,CA01,NULL
1714665561,3a90c3f8ef563c9f5e923833a808a936,PennController,22,0,experimental-trial,NULL,Audio,audio,play,0,1714665498238,1,17,wish,CA01,NULL
1714665561,3a90c3f8ef563c9f5e923833a808a936,PennController,22,0,experimental-trial,NULL,Audio,audio,end,2.76,1714665501071,1,17,wish,CA01,NULL
1714665561,3a90c3f8ef563c9f5e923833a808a936,PennController,22,0,experimental-trial,NULL,Audio,audio,pause,2.76,1714665501071,1,17,wish,CA01,NULL
1714665561,3a90c3f8ef563c9f5e923833a808a936,PennController,22,0,experimental-trial,NULL,Audio,audio,seek,NA,Never,1,17,wish,CA01,NULL
1714665561,3a90c3f8ef563c9f5e923833a808a936,PennController,22,0,experimental-trial,NULL,Canvas,side-by-side,Print,NA,1714665498230,1,17,wish,CA01,NULL
1714665561,3a90c3f8ef563c9f5e923833a808a936,PennController,22,0,experimental-trial,NULL,Selector,selection,Selection,wish,1714665501601,1,17,wish,CA01,desire;wish
1714665561,3a90c3f8ef563c9f5e923833a808a936,PennController,22,0,experimental-trial,NULL,PennController,23,_Trial_,End,1714665501602,1,17,wish,CA01,NULL
1714665561,3a90c3f8ef563c9f5e923833a808a936,PennController,47,0,experimental-trial,NULL,PennController,48,_Trial_,Start,1714665501607,1,42,desire,CA01,NULL
1714665561,3a90c3f8ef563c9f5e923833a808a936,PennController,47,0,experimental-trial,NULL,Audio,audio,play,0,1714665501625,1,42,desire,CA01,NULL
1714665561,3a90c3f8ef563c9f5e923833a808a936,PennController,47,0,experimental-trial,NULL,Audio,audio,end,2.52,1714665504211,1,42,desire,CA01,NULL
1714665561,3a90c3f8ef563c9f5e923833a808a936,PennController,47,0,experimental-trial,NULL,Audio,audio,pause,2.52,1714665504211,1,42,desire,CA01,NULL
1714665561,3a90c3f8ef563c9f5e923833a808a936,PennController,47,0,experimental-trial,NULL,Audio,audio,seek,NA,Never,1,42,desire,CA01,NULL
1714665561,3a90c3f8ef563c9f5e923833a808a936,PennController,47,0,experimental-trial,NULL,Canvas,side-by-side,Print,NA,1714665501615,1,42,desire,CA01,NULL
1714665561,3a90c3f8ef563c9f5e923833a808a936,PennController,47,0,experimental-trial,NULL,Selector,selection,Selection,desire,1714665504231,1,42,desire,CA01,wish;desire
1714665561,3a90c3f8ef563c9f5e923833a808a936,PennController,47,0,experimental-trial,NULL,PennController,48,_Trial_,End,1714665504232,1,42,desire,CA01,NULL
1714665561,3a90c3f8ef563c9f5e923833a808a936,PennController,29,0,experimental-trial,NULL,PennController,30,_Trial_,Start,1714665504238,1,24,wish,CA01,NULL
1714665561,3a90c3f8ef563c9f5e923833a808a936,PennController,29,0,experimental-trial,NULL,Audio,audio,play,0,1714665504253,1,24,wish,CA01,NULL
1714665561,3a90c3f8ef563c9f5e923833a808a936,PennController,29,0,experimental-trial,NULL,Audio,audio,end,2.856,1714665507171,1,24,wish,CA01,NULL
1714665561,3a90c3f8ef563c9f5e923833a808a936,PennController,29,0,experimental-trial,NULL,Audio,audio,pause,2.856,1714665507171,1,24,wish,CA01,NULL
1714665561,3a90c3f8ef563c9f5e923833a808a936,PennController,29,0,experimental-trial,NULL,Audio,audio,seek,NA,Never,1,24,wish,CA01,NULL
1714665561,3a90c3f8ef563c9f5e923833a808a936,PennController,29,0,experimental-trial,NULL,Canvas,side-by-side,Print,NA,1714665504246,1,24,wish,CA01,NULL
1714665561,3a90c3f8ef563c9f5e923833a808a936,PennController,29,0,experimental-trial,NULL,Selector,selection,Selection,wish,1714665507559,1,24,wish,CA01,desire;wish
1714665561,3a90c3f8ef563c9f5e923833a808a936,PennController,29,0,experimental-trial,NULL,PennController,30,_Trial_,End,1714665507560,1,24,wish,CA01,NULL
1714665561,3a90c3f8ef563c9f5e923833a808a936,PennController,39,0,experimental-trial,NULL,PennController,40,_Trial_,Start,1714665507565,1,34,wish,CA01,NULL
1714665561,3a90c3f8ef563c9f5e923833a808a936,PennController,39,0,experimental-trial,NULL,Audio,audio,play,0,1714665507582,1,34,wish,CA01,NULL
1714665561,3a90c3f8ef563c9f5e923833a808a936,PennController,39,0,experimental-trial,NULL,Audio,audio,end,2.592,1714665510231,1,34,wish,CA01,NULL
1714665561,3a90c3f8ef563c9f5e923833a808a936,PennController,39,0,experimental-trial,NULL,Audio,audio,pause,2.592,1714665510231,1,34,wish,CA01,NULL
1714665561,3a90c3f8ef563c9f5e923833a808a936,PennController,39,0,experimental-trial,NULL,Audio,audio,seek,NA,Never,1,34,wish,CA01,NULL
1714665561,3a90c3f8ef563c9f5e923833a808a936,PennController,39,0,experimental-trial,NULL,Canvas,side-by-side,Print,NA,1714665507572,1,34,wish,CA01,NULL
1714665561,3a90c3f8ef563c9f5e923833a808a936,PennController,39,0,experimental-trial,NULL,Selector,selection,Selection,wish,1714665510046,1,34,wish,CA01,desire;wish
1714665561,3a90c3f8ef563c9f5e923833a808a936,PennController,39,0,experimental-trial,NULL,PennController,40,_Trial_,End,1714665510233,1,34,wish,CA01,NULL
1714665561,3a90c3f8ef563c9f5e923833a808a936,PennController,46,0,experimental-trial,NULL,PennController,47,_Trial_,Start,1714665510239,1,41,desire,CA01,NULL
1714665561,3a90c3f8ef563c9f5e923833a808a936,PennController,46,0,experimental-trial,NULL,Audio,audio,play,0,1714665510253,1,41,desire,CA01,NULL
1714665561,3a90c3f8ef563c9f5e923833a808a936,PennController,46,0,experimental-trial,NULL,Audio,audio,end,2.664,1714665512953,1,41,desire,CA01,NULL
1714665561,3a90c3f8ef563c9f5e923833a808a936,PennController,46,0,experimental-trial,NULL,Audio,audio,pause,2.664,1714665512953,1,41,desire,CA01,NULL
1714665561,3a90c3f8ef563c9f5e923833a808a936,PennController,46,0,experimental-trial,NULL,Audio,audio,seek,NA,Never,1,41,desire,CA01,NULL
1714665561,3a90c3f8ef563c9f5e923833a808a936,PennController,46,0,experimental-trial,NULL,Canvas,side-by-side,Print,NA,1714665510246,1,41,desire,CA01,NULL
1714665561,3a90c3f8ef563c9f5e923833a808a936,PennController,46,0,experimental-trial,NULL,Selector,selection,Selection,desire,1714665513081,1,41,desire,CA01,wish;desire
1714665561,3a90c3f8ef563c9f5e923833a808a936,PennController,46,0,experimental-trial,NULL,PennController,47,_Trial_,End,1714665513082,1,41,desire,CA01,NULL
1714665561,3a90c3f8ef563c9f5e923833a808a936,PennController,37,0,experimental-trial,NULL,PennController,38,_Trial_,Start,1714665513087,1,32,wish,CA01,NULL
1714665561,3a90c3f8ef563c9f5e923833a808a936,PennController,37,0,experimental-trial,NULL,Audio,audio,play,0,1714665513104,1,32,wish,CA01,NULL
1714665561,3a90c3f8ef563c9f5e923833a808a936,PennController,37,0,experimental-trial,NULL,Audio,audio,end,2.904,1714665516051,1,32,wish,CA01,NULL
1714665561,3a90c3f8ef563c9f5e923833a808a936,PennController,37,0,experimental-trial,NULL,Audio,audio,pause,2.904,1714665516051,1,32,wish,CA01,NULL
1714665561,3a90c3f8ef563c9f5e923833a808a936,PennController,37,0,experimental-trial,NULL,Audio,audio,seek,NA,Never,1,32,wish,CA01,NULL
1714665561,3a90c3f8ef563c9f5e923833a808a936,PennController,37,0,experimental-trial,NULL,Canvas,side-by-side,Print,NA,1714665513093,1,32,wish,CA01,NULL
1714665561,3a90c3f8ef563c9f5e923833a808a936,PennController,37,0,experimental-trial,NULL,Selector,selection,Selection,wish,1714665516393,1,32,wish,CA01,wish;desire
1714665561,3a90c3f8ef563c9f5e923833a808a936,PennController,37,0,experimental-trial,NULL,PennController,38,_Trial_,End,1714665516395,1,32,wish,CA01,NULL
1714665561,3a90c3f8ef563c9f5e923833a808a936,PennController,11,0,experimental-trial,NULL,PennController,12,_Trial_,Start,1714665516398,1,6,desire,CA01,NULL
1714665561,3a90c3f8ef563c9f5e923833a808a936,PennController,11,0,experimental-trial,NULL,Audio,audio,play,0,1714665516413,1,6,desire,CA01,NULL
1714665561,3a90c3f8ef563c9f5e923833a808a936,PennController,11,0,experimental-trial,NULL,Audio,audio,end,2.52,1714665518990,1,6,desire,CA01,NULL
1714665561,3a90c3f8ef563c9f5e923833a808a936,PennController,11,0,experimental-trial,NULL,Audio,audio,pause,2.52,1714665518990,1,6,desire,CA01,NULL
1714665561,3a90c3f8ef563c9f5e923833a808a936,PennController,11,0,experimental-trial,NULL,Audio,audio,seek,NA,Never,1,6,desire,CA01,NULL
1714665561,3a90c3f8ef563c9f5e923833a808a936,PennController,11,0,experimental-trial,NULL,Canvas,side-by-side,Print,NA,1714665516406,1,6,desire,CA01,NULL
1714665561,3a90c3f8ef563c9f5e923833a808a936,PennController,11,0,experimental-trial,NULL,Selector,selection,Selection,desire,1714665519161,1,6,desire,CA01,wish;desire
1714665561,3a90c3f8ef563c9f5e923833a808a936,PennController,11,0,experimental-trial,NULL,PennController,12,_Trial_,End,1714665519162,1,6,desire,CA01,NULL
1714665561,3a90c3f8ef563c9f5e923833a808a936,PennController,49,0,experimental-trial,NULL,PennController,50,_Trial_,Start,1714665519166,1,44,wish,CA01,NULL
1714665561,3a90c3f8ef563c9f5e923833a808a936,PennController,49,0,experimental-trial,NULL,Audio,audio,play,0,1714665519176,1,44,wish,CA01,NULL
1714665561,3a90c3f8ef563c9f5e923833a808a936,PennController,49,0,experimental-trial,NULL,Audio,audio,end,3.048,1714665522251,1,44,wish,CA01,NULL
1714665561,3a90c3f8ef563c9f5e923833a808a936,PennController,49,0,experimental-trial,NULL,Audio,audio,pause,3.048,1714665522251,1,44,wish,CA01,NULL
1714665561,3a90c3f8ef563c9f5e923833a808a936,PennController,49,0,experimental-trial,NULL,Audio,audio,seek,NA,Never,1,44,wish,CA01,NULL
1714665561,3a90c3f8ef563c9f5e923833a808a936,PennController,49,0,experimental-trial,NULL,Canvas,side-by-side,Print,NA,1714665519170,1,44,wish,CA01,NULL
1714665561,3a90c3f8ef563c9f5e923833a808a936,PennController,49,0,experimental-trial,NULL,Selector,selection,Selection,wish,1714665522460,1,44,wish,CA01,desire;wish
1714665561,3a90c3f8ef563c9f5e923833a808a936,PennController,49,0,experimental-trial,NULL,PennController,50,_Trial_,End,1714665522462,1,44,wish,CA01,NULL
1714665561,3a90c3f8ef563c9f5e923833a808a936,PennController,12,0,experimental-trial,NULL,PennController,13,_Trial_,Start,1714665522466,1,7,desire,CA01,NULL
1714665561,3a90c3f8ef563c9f5e923833a808a936,PennController,12,0,experimental-trial,NULL,Audio,audio,play,0,1714665522481,1,7,desire,CA01,NULL
1714665561,3a90c3f8ef563c9f5e923833a808a936,PennController,12,0,experimental-trial,NULL,Audio,audio,end,2.472,1714665525011,1,7,desire,CA01,NULL
1714665561,3a90c3f8ef563c9f5e923833a808a936,PennController,12,0,experimental-trial,NULL,Audio,audio,pause,2.472,1714665525010,1,7,desire,CA01,NULL
1714665561,3a90c3f8ef563c9f5e923833a808a936,PennController,12,0,experimental-trial,NULL,Audio,audio,seek,NA,Never,1,7,desire,CA01,NULL
1714665561,3a90c3f8ef563c9f5e923833a808a936,PennController,12,0,experimental-trial,NULL,Canvas,side-by-side,Print,NA,1714665522473,1,7,desire,CA01,NULL
1714665561,3a90c3f8ef563c9f5e923833a808a936,PennController,12,0,experimental-trial,NULL,Selector,selection,Selection,desire,1714665525694,1,7,desire,CA01,wish;desire
1714665561,3a90c3f8ef563c9f5e923833a808a936,PennController,12,0,experimental-trial,NULL,PennController,13,_Trial_,End,1714665525695,1,7,desire,CA01,NULL
1714665561,3a90c3f8ef563c9f5e923833a808a936,PennController,26,0,experimental-trial,NULL,PennController,27,_Trial_,Start,1714665525700,1,21,wish,CA01,NULL
1714665561,3a90c3f8ef563c9f5e923833a808a936,PennController,26,0,experimental-trial,NULL,Audio,audio,play,0,1714665525712,1,21,wish,CA01,NULL
1714665561,3a90c3f8ef563c9f5e923833a808a936,PennController,26,0,experimental-trial,NULL,Audio,audio,end,2.712,1714665528471,1,21,wish,CA01,NULL
1714665561,3a90c3f8ef563c9f5e923833a808a936,PennController,26,0,experimental-trial,NULL,Audio,audio,pause,2.712,1714665528471,1,21,wish,CA01,NULL
1714665561,3a90c3f8ef563c9f5e923833a808a936,PennController,26,0,experimental-trial,NULL,Audio,audio,seek,NA,Never,1,21,wish,CA01,NULL
1714665561,3a90c3f8ef563c9f5e923833a808a936,PennController,26,0,experimental-trial,NULL,Canvas,side-by-side,Print,NA,1714665525707,1,21,wish,CA01,NULL
1714665561,3a90c3f8ef563c9f5e923833a808a936,PennController,26,0,experimental-trial,NULL,Selector,selection,Selection,wish,1714665533118,1,21,wish,CA01,desire;wish
1714665561,3a90c3f8ef563c9f5e923833a808a936,PennController,26,0,experimental-trial,NULL,PennController,27,_Trial_,End,1714665533119,1,21,wish,CA01,NULL
1714665561,3a90c3f8ef563c9f5e923833a808a936,PennController,21,0,experimental-trial,NULL,PennController,22,_Trial_,Start,1714665533124,1,16,wish,CA01,NULL
1714665561,3a90c3f8ef563c9f5e923833a808a936,PennController,21,0,experimental-trial,NULL,Audio,audio,play,0,1714665533138,1,16,wish,CA01,NULL
1714665561,3a90c3f8ef563c9f5e923833a808a936,PennController,21,0,experimental-trial,NULL,Audio,audio,end,2.64,1714665535832,1,16,wish,CA01,NULL
1714665561,3a90c3f8ef563c9f5e923833a808a936,PennController,21,0,experimental-trial,NULL,Audio,audio,pause,2.64,1714665535832,1,16,wish,CA01,NULL
1714665561,3a90c3f8ef563c9f5e923833a808a936,PennController,21,0,experimental-trial,NULL,Audio,audio,seek,NA,Never,1,16,wish,CA01,NULL
1714665561,3a90c3f8ef563c9f5e923833a808a936,PennController,21,0,experimental-trial,NULL,Canvas,side-by-side,Print,NA,1714665533130,1,16,wish,CA01,NULL
1714665561,3a90c3f8ef563c9f5e923833a808a936,PennController,21,0,experimental-trial,NULL,Selector,selection,Selection,wish,1714665536584,1,16,wish,CA01,desire;wish
1714665561,3a90c3f8ef563c9f5e923833a808a936,PennController,21,0,experimental-trial,NULL,PennController,22,_Trial_,End,1714665536585,1,16,wish,CA01,NULL
1714665561,3a90c3f8ef563c9f5e923833a808a936,PennController,38,0,experimental-trial,NULL,PennController,39,_Trial_,Start,1714665536590,1,33,wish,CA01,NULL
1714665561,3a90c3f8ef563c9f5e923833a808a936,PennController,38,0,experimental-trial,NULL,Audio,audio,play,0,1714665536605,1,33,wish,CA01,NULL
1714665561,3a90c3f8ef563c9f5e923833a808a936,PennController,38,0,experimental-trial,NULL,Audio,audio,end,2.928,1714665539591,1,33,wish,CA01,NULL
1714665561,3a90c3f8ef563c9f5e923833a808a936,PennController,38,0,experimental-trial,NULL,Audio,audio,pause,2.928,1714665539591,1,33,wish,CA01,NULL
1714665561,3a90c3f8ef563c9f5e923833a808a936,PennController,38,0,experimental-trial,NULL,Audio,audio,seek,NA,Never,1,33,wish,CA01,NULL
1714665561,3a90c3f8ef563c9f5e923833a808a936,PennController,38,0,experimental-trial,NULL,Canvas,side-by-side,Print,NA,1714665536596,1,33,wish,CA01,NULL
1714665561,3a90c3f8ef563c9f5e923833a808a936,PennController,38,0,experimental-trial,NULL,Selector,selection,Selection,wish,1714665540512,1,33,wish,CA01,desire;wish
1714665561,3a90c3f8ef563c9f5e923833a808a936,PennController,38,0,experimental-trial,NULL,PennController,39,_Trial_,End,1714665540514,1,33,wish,CA01,NULL
1714665561,3a90c3f8ef563c9f5e923833a808a936,PennController,6,0,experimental-trial,NULL,PennController,7,_Trial_,Start,1714665540518,1,1,desire,CA01,NULL
1714665561,3a90c3f8ef563c9f5e923833a808a936,PennController,6,0,experimental-trial,NULL,Audio,audio,play,0,1714665540534,1,1,desire,CA01,NULL
1714665561,3a90c3f8ef563c9f5e923833a808a936,PennController,6,0,experimental-trial,NULL,Audio,audio,end,2.4,1714665542971,1,1,desire,CA01,NULL
1714665561,3a90c3f8ef563c9f5e923833a808a936,PennController,6,0,experimental-trial,NULL,Audio,audio,pause,2.4,1714665542971,1,1,desire,CA01,NULL
1714665561,3a90c3f8ef563c9f5e923833a808a936,PennController,6,0,experimental-trial,NULL,Audio,audio,seek,NA,Never,1,1,desire,CA01,NULL
1714665561,3a90c3f8ef563c9f5e923833a808a936,PennController,6,0,experimental-trial,NULL,Canvas,side-by-side,Print,NA,1714665540525,1,1,desire,CA01,NULL
1714665561,3a90c3f8ef563c9f5e923833a808a936,PennController,6,0,experimental-trial,NULL,Selector,selection,Selection,desire,1714665543041,1,1,desire,CA01,desire;wish
1714665561,3a90c3f8ef563c9f5e923833a808a936,PennController,6,0,experimental-trial,NULL,PennController,7,_Trial_,End,1714665543043,1,1,desire,CA01,NULL
1714665561,3a90c3f8ef563c9f5e923833a808a936,PennController,9,0,experimental-trial,NULL,PennController,10,_Trial_,Start,1714665543049,1,4,desire,CA01,NULL
1714665561,3a90c3f8ef563c9f5e923833a808a936,PennController,9,0,experimental-trial,NULL,Audio,audio,play,0,1714665543064,1,4,desire,CA01,NULL
1714665561,3a90c3f8ef563c9f5e923833a808a936,PennController,9,0,experimental-trial,NULL,Audio,audio,end,2.136,1714665545251,1,4,desire,CA01,NULL
1714665561,3a90c3f8ef563c9f5e923833a808a936,PennController,9,0,experimental-trial,NULL,Audio,audio,pause,2.136,1714665545251,1,4,desire,CA01,NULL
1714665561,3a90c3f8ef563c9f5e923833a808a936,PennController,9,0,experimental-trial,NULL,Audio,audio,seek,NA,Never,1,4,desire,CA01,NULL
1714665561,3a90c3f8ef563c9f5e923833a808a936,PennController,9,0,experimental-trial,NULL,Canvas,side-by-side,Print,NA,1714665543057,1,4,desire,CA01,NULL
1714665561,3a90c3f8ef563c9f5e923833a808a936,PennController,9,0,experimental-trial,NULL,Selector,selection,Selection,desire,1714665545378,1,4,desire,CA01,wish;desire
1714665561,3a90c3f8ef563c9f5e923833a808a936,PennController,9,0,experimental-trial,NULL,PennController,10,_Trial_,End,1714665545380,1,4,desire,CA01,NULL
1714665561,3a90c3f8ef563c9f5e923833a808a936,PennController,41,0,experimental-trial,NULL,PennController,42,_Trial_,Start,1714665545385,1,36,wish,CA01,NULL
1714665561,3a90c3f8ef563c9f5e923833a808a936,PennController,41,0,experimental-trial,NULL,Audio,audio,play,0,1714665545401,1,36,wish,CA01,NULL
1714665561,3a90c3f8ef563c9f5e923833a808a936,PennController,41,0,experimental-trial,NULL,Audio,audio,end,2.496,1714665547951,1,36,wish,CA01,NULL
1714665561,3a90c3f8ef563c9f5e923833a808a936,PennController,41,0,experimental-trial,NULL,Audio,audio,pause,2.496,1714665547951,1,36,wish,CA01,NULL
1714665561,3a90c3f8ef563c9f5e923833a808a936,PennController,41,0,experimental-trial,NULL,Audio,audio,seek,NA,Never,1,36,wish,CA01,NULL
1714665561,3a90c3f8ef563c9f5e923833a808a936,PennController,41,0,experimental-trial,NULL,Canvas,side-by-side,Print,NA,1714665545393,1,36,wish,CA01,NULL
1714665561,3a90c3f8ef563c9f5e923833a808a936,PennController,41,0,experimental-trial,NULL,Selector,selection,Selection,wish,1714665548448,1,36,wish,CA01,desire;wish
1714665561,3a90c3f8ef563c9f5e923833a808a936,PennController,41,0,experimental-trial,NULL,PennController,42,_Trial_,End,1714665548449,1,36,wish,CA01,NULL
1714665561,3a90c3f8ef563c9f5e923833a808a936,PennController,8,0,experimental-trial,NULL,PennController,9,_Trial_,Start,1714665548454,1,3,desire,CA01,NULL
1714665561,3a90c3f8ef563c9f5e923833a808a936,PennController,8,0,experimental-trial,NULL,Audio,audio,play,0,1714665548468,1,3,desire,CA01,NULL
1714665561,3a90c3f8ef563c9f5e923833a808a936,PennController,8,0,experimental-trial,NULL,Audio,audio,end,2.328,1714665550851,1,3,desire,CA01,NULL
1714665561,3a90c3f8ef563c9f5e923833a808a936,PennController,8,0,experimental-trial,NULL,Audio,audio,pause,2.328,1714665550851,1,3,desire,CA01,NULL
1714665561,3a90c3f8ef563c9f5e923833a808a936,PennController,8,0,experimental-trial,NULL,Audio,audio,seek,NA,Never,1,3,desire,CA01,NULL
1714665561,3a90c3f8ef563c9f5e923833a808a936,PennController,8,0,experimental-trial,NULL,Canvas,side-by-side,Print,NA,1714665548461,1,3,desire,CA01,NULL
1714665561,3a90c3f8ef563c9f5e923833a808a936,PennController,8,0,experimental-trial,NULL,Selector,selection,Selection,desire,1714665551039,1,3,desire,CA01,wish;desire
1714665561,3a90c3f8ef563c9f5e923833a808a936,PennController,8,0,experimental-trial,NULL,PennController,9,_Trial_,End,1714665551040,1,3,desire,CA01,NULL
1714665561,3a90c3f8ef563c9f5e923833a808a936,PennController,48,0,experimental-trial,NULL,PennController,49,_Trial_,Start,1714665551045,1,43,wish,CA01,NULL
1714665561,3a90c3f8ef563c9f5e923833a808a936,PennController,48,0,experimental-trial,NULL,Audio,audio,play,0,1714665551060,1,43,wish,CA01,NULL
1714665561,3a90c3f8ef563c9f5e923833a808a936,PennController,48,0,experimental-trial,NULL,Audio,audio,end,2.592,1714665553711,1,43,wish,CA01,NULL
1714665561,3a90c3f8ef563c9f5e923833a808a936,PennController,48,0,experimental-trial,NULL,Audio,audio,pause,2.592,1714665553711,1,43,wish,CA01,NULL
1714665561,3a90c3f8ef563c9f5e923833a808a936,PennController,48,0,experimental-trial,NULL,Audio,audio,seek,NA,Never,1,43,wish,CA01,NULL
1714665561,3a90c3f8ef563c9f5e923833a808a936,PennController,48,0,experimental-trial,NULL,Canvas,side-by-side,Print,NA,1714665551053,1,43,wish,CA01,NULL
1714665561,3a90c3f8ef563c9f5e923833a808a936,PennController,48,0,experimental-trial,NULL,Selector,selection,Selection,wish,1714665554539,1,43,wish,CA01,desire;wish
1714665561,3a90c3f8ef563c9f5e923833a808a936,PennController,48,0,experimental-trial,NULL,PennController,49,_Trial_,End,1714665554541,1,43,wish,CA01,NULL
1714665561,3a90c3f8ef563c9f5e923833a808a936,PennController,53,0,experimental-trial,NULL,PennController,54,_Trial_,Start,1714665554546,1,48,wish,CA01,NULL
1714665561,3a90c3f8ef563c9f5e923833a808a936,PennController,53,0,experimental-trial,NULL,Audio,audio,play,0,1714665554561,1,48,wish,CA01,NULL
1714665561,3a90c3f8ef563c9f5e923833a808a936,PennController,53,0,experimental-trial,NULL,Audio,audio,end,3.168,1714665557791,1,48,wish,CA01,NULL
1714665561,3a90c3f8ef563c9f5e923833a808a936,PennController,53,0,experimental-trial,NULL,Audio,audio,pause,3.168,1714665557791,1,48,wish,CA01,NULL
1714665561,3a90c3f8ef563c9f5e923833a808a936,PennController,53,0,experimental-trial,NULL,Audio,audio,seek,NA,Never,1,48,wish,CA01,NULL
1714665561,3a90c3f8ef563c9f5e923833a808a936,PennController,53,0,experimental-trial,NULL,Canvas,side-by-side,Print,NA,1714665554553,1,48,wish,CA01,NULL
1714665561,3a90c3f8ef563c9f5e923833a808a936,PennController,53,0,experimental-trial,NULL,Selector,selection,Selection,wish,1714665557977,1,48,wish,CA01,wish;desire
1714665561,3a90c3f8ef563c9f5e923833a808a936,PennController,53,0,experimental-trial,NULL,PennController,54,_Trial_,End,1714665557978,1,48,wish,CA01,NULL
1714665561,3a90c3f8ef563c9f5e923833a808a936,PennController,25,0,experimental-trial,NULL,PennController,26,_Trial_,Start,1714665557982,1,20,wish,CA01,NULL
1714665561,3a90c3f8ef563c9f5e923833a808a936,PennController,25,0,experimental-trial,NULL,Audio,audio,play,0,1714665557998,1,20,wish,CA01,NULL
1714665561,3a90c3f8ef563c9f5e923833a808a936,PennController,25,0,experimental-trial,NULL,Audio,audio,end,2.904,1714665560951,1,20,wish,CA01,NULL
1714665561,3a90c3f8ef563c9f5e923833a808a936,PennController,25,0,experimental-trial,NULL,Audio,audio,pause,2.904,1714665560951,1,20,wish,CA01,NULL
1714665561,3a90c3f8ef563c9f5e923833a808a936,PennController,25,0,experimental-trial,NULL,Audio,audio,seek,NA,Never,1,20,wish,CA01,NULL
1714665561,3a90c3f8ef563c9f5e923833a808a936,PennController,25,0,experimental-trial,NULL,Canvas,side-by-side,Print,NA,1714665557989,1,20,wish,CA01,NULL
1714665561,3a90c3f8ef563c9f5e923833a808a936,PennController,25,0,experimental-trial,NULL,Selector,selection,Selection,wish,1714665561313,1,20,wish,CA01,desire;wish
1714665561,3a90c3f8ef563c9f5e923833a808a936,PennController,25,0,experimental-trial,NULL,PennController,26,_Trial_,End,1714665561314,1,20,wish,CA01,NULL